File: 3_electro-mechanical coupling/EM_Spring_Switch_Experiment/220519 - V-3.txt
Displacement [mm] - FD curve	Force [N] - FD curve
0.00275	0.533075
0.00825	0.533075
0.01375	0.533075
0.01925	0.533075
0.02475	0.533075
0.03025	0.533075
0.03575	0.533075
0.04125	0.533075
0.04675	0.533075
0.05225	0.533075
0.05775	0.533075
0.06325	0.533075
0.06875	0.533075
0.07425	0.533075
0.07975	0.533075
0.08525	0.533075
0.09075	0.533075
0.09625	0.533075
0.10175	0.533075
0.10725	0.533075
0.11275	0.533075
0.11825	0.533075
0.12375	0.533075
0.12925	0.533075
0.13475	0.533075
0.14025	0.533075
0.14575	0.533075
0.15125	0.533075
0.15675	0.533075
0.16225	0.533075
0.16775	0.533075
0.17325	0.533075
0.17875	0.533075
0.18425	0.533075
0.18975	0.533075
0.19525	0.533075
0.20075	0.533075
0.20625	0.533075
0.21175	0.533075
0.21725	0.533075
0.22275	0.533075
0.22825	0.533075
0.23375	0.533075
0.23925	0.533075
0.24475	0.533075
0.25025	0.533075
0.25575	0.533075
0.26125	0.533075
0.26675	0.533075
0.27225	0.533075
0.27775	0.533075
0.28325	0.533075
0.28875	0.533075
0.29425	0.533075
0.29975	0.533075
0.30525	0.533075
0.31075	0.533075
0.31625	0.533075
0.32175	0.533075
0.32725	0.533075
0.33275	0.533075
0.33825	0.533075
0.34375	0.533075
0.34925	0.533075
0.35475	0.533075
0.36025	0.533075
0.36575	0.533075
0.37125	0.533075
0.37675	0.533075
0.38225	0.533075
0.38775	0.533075
0.39325	0.533075
0.39875	0.533075
0.40425	0.533075
0.40975	0.533075
0.41525	0.533075
0.42075	0.533075
0.42625	0.533075
0.43175	0.533075
0.43725	0.533075
0.44275	0.533075
0.44825	0.533075
0.45375	0.533075
0.45925	0.533075
0.46475	0.533075
0.47025	0.533075
0.47575	0.533075
0.48125	0.533075
0.48675	0.533075
0.49225	0.533075
0.49775	0.533075
0.50325	0.533075
0.50875	0.533075
0.51425	0.533075
0.51975	0.533075
0.52525	0.533075
0.53075	0.533075
0.53625	0.533075
0.54175	0.533075
0.54725	0.533075
0.55275	0.533075
0.55825	0.533075
0.56375	0.533075
0.56925	0.533075
0.57475	0.533075
0.58025	0.533075
0.58575	0.533075
0.59125	0.533075
0.59675	0.533075
0.60225	0.533075
0.60775	0.533075
0.61325	0.533075
0.61875	0.533075
0.62425	0.533075
0.62975	0.533075
0.63525	0.533075
0.64075	0.533075
0.64625	0.533075
0.65175	0.533075
0.65725	0.533075
0.66275	0.533075
0.66825	0.533075
0.67375	0.533075
0.67925	0.533075
0.68475	0.533075
0.69025	0.533075
0.69575	0.533075
0.70125	0.533075
0.70675	0.533075
0.71225	0.533075
0.71775	0.533075
0.72325	0.533075
0.72875	0.533075
0.73425	0.533075
0.73975	0.533075
0.74525	0.533075
0.75075	0.533075
0.75625	0.533075
0.76175	0.533075
0.76725	0.533075
0.77275	0.533075
0.77825	0.533075
0.78375	0.533075
0.78925	0.533075
0.79475	0.533075
0.80025	0.533075
0.80575	0.533075
0.81125	0.533075
0.81675	0.533075
0.82225	0.533075
0.82775	0.533075
0.83325	0.533075
0.83875	0.533075
0.84425	0.533075
0.84975	0.533075
0.85525	0.533075
0.86075	0.533075
0.86625	0.533075
0.87175	0.533075
0.87725	0.533075
0.88275	0.533075
0.88825	0.533075
0.89375	0.533075
0.89925	0.533075
0.90475	0.533075
0.91025	0.533075
0.91575	0.533075
0.92125	0.533075
0.92675	0.533075
0.93225	0.533075
0.93775	0.533075
0.94325	0.533075
0.94875	0.533075
0.95425	0.533075
0.95975	0.533075
0.96525	0.533075
0.97075	0.533075
0.97625	0.533075
0.98175	0.533075
0.98725	0.533075
0.99275	0.533075
0.99825	0.533075
1.00375	0.533075
1.00925	0.533075
1.01475	0.533075
1.02025	0.533075
1.02575	0.533075
1.03125	0.533075
1.03675	0.533075
1.04225	0.533075
1.04775	0.533075
1.05325	0.533075
1.05875	0.533075
1.06425	0.533075
1.06975	0.533075
1.07525	0.533075
1.08075	0.533075
1.08625	0.533075
1.09175	0.533075
1.09725	0.533075
1.10275	0.533075
1.10825	0.533075
1.11375	0.533075
1.11925	0.533075
1.12475	0.533075
1.13025	0.533075
1.13575	0.533075
1.14125	0.533075
1.14675	0.533075
1.15225	0.533075
1.15775	0.533075
1.16325	0.533075
1.16875	0.533075
1.17425	0.533075
1.17975	0.533075
1.18525	0.533075
1.19075	0.533075
1.19625	0.533075
1.20175	0.533075
1.20725	0.533075
1.21275	0.533075
1.21825	0.533075
1.22375	0.533075
1.22925	0.533075
1.23475	0.533075
1.24025	0.533075
1.24575	0.533075
1.25125	0.533075
1.25675	0.533075
1.26225	0.533075
1.26775	0.533075
1.27325	0.533075
1.27875	0.533075
1.28425	0.533075
1.28975	0.533075
1.29525	0.533075
1.30075	0.533075
1.30625	0.533075
1.31175	0.533075
1.31725	0.533075
1.32275	0.533075
1.32825	0.533075
1.33375	0.533075
1.33925	0.533075
1.34475	0.533075
1.35025	0.533075
1.35575	0.533075
1.36125	0.533075
1.36675	0.533075
1.37225	0.533075
1.37775	0.533075
1.38325	0.533075
1.38875	0.533075
1.39425	0.533075
1.39975	0.533075
1.40525	0.533075
1.41075	0.533075
1.41625	0.533075
1.42175	0.533075
1.42725	0.533075
1.43275	0.533075
1.43825	0.533075
1.44375	0.533075
1.44925	0.533075
1.45475	0.533075
1.46025	0.533075
1.46575	0.533075
1.47125	0.533075
1.47675	0.533075
1.48225	0.533075
1.48775	0.533075
1.49325	0.533075
1.49875	0.533075
1.50425	0.533075
1.50975	0.533075
1.51525	0.533075
1.52075	0.533075
1.52625	0.533075
1.53175	0.533075
1.53725	0.533075
1.54275	0.533075
1.54825	0.533075
1.55375	0.533075
1.55925	0.533075
1.56475	0.533075
1.57025	0.533075
1.57575	0.533075
1.58125	0.533075
1.58675	0.533075
1.59225	0.533075
1.59775	0.533075
1.60325	0.533075
1.60875	0.533075
1.61425	0.533075
1.61975	0.533075
1.62525	0.533075
1.63075	0.533075
1.63625	0.533075
1.64175	0.533075
1.64725	0.533075
1.65275	0.533075
1.65825	0.533075
1.66375	0.533075
1.66925	0.533075
1.67475	0.533075
1.68025	0.533075
1.68575	0.533075
1.69125	0.533075
1.69675	0.533075
1.70225	0.533075
1.70775	0.533075
1.71325	0.533075
1.71875	0.533075
1.72425	0.533075
1.72975	0.533075
1.73525	0.533075
1.74075	0.533075
1.74625	0.533075
1.75175	0.533075
1.75725	0.533075
1.76275	0.533075
1.76825	0.533075
1.77375	0.533075
1.77925	0.533075
1.78475	0.533075
1.79025	0.533075
1.79575	0.533075
1.80125	0.533075
1.80675	0.533075
1.81225	0.533075
1.81775	0.533075
1.82325	0.533075
1.82875	0.533075
1.83425	0.533075
1.83975	0.533075
1.84525	0.533075
1.85075	0.533075
1.85625	0.533075
1.86175	0.533075
1.86725	0.533075
1.87275	0.533075
1.87825	0.533075
1.88375	0.533075
1.88925	0.533075
1.89475	0.533075
1.90025	0.533075
1.90575	0.533075
1.91125	0.533075
1.91675	0.533075
1.92225	0.533075
1.92775	0.533075
1.93325	0.533075
1.93875	0.533075
1.94425	0.533075
1.94975	0.533075
1.95525	0.533075
1.96075	0.533075
1.96625	0.533075
1.97175	0.533075
1.97725	0.533075
1.98275	0.533075
1.98825	0.533075
1.99375	0.533075
1.99925	0.533075
2.00475	0.533075
2.01025	-0.0015151
2.01575	0.00069691
2.02125	-0.000734389
2.02675	0.000501733
2.03225	-0.00125486
2.03775	-0.00145004
2.04325	0.00128244
2.04875	-0.000539212
2.05425	0.000631851
2.05975	0.00290892
2.06525	0.000241496
2.07075	-0.000734389
2.07625	-0.00171028
2.08175	-0.000929566
2.08725	0.000306556
2.09275	-0.000409094
2.09825	0.000957146
2.10375	0.000957146
2.10925	0.00141256
2.11475	0.0013475
2.12025	0.000501733
2.12575	-0.0011898
2.13125	0.00316915
2.13675	-1.87397E-5
2.14225	-0.00145004
2.14775	0.000436674
2.15325	-0.000278976
2.15875	-8.37988E-5
2.16425	0.00115232
2.16975	0.00154268
2.17525	-0.00066933
2.18075	-1.87397E-5
2.18625	-0.000409094
2.19175	0.00147762
2.19725	-0.00177533
2.20275	4.63193E-5
2.20825	0.000566792
2.21375	-0.000929566
2.21925	0.0013475
2.22475	4.63193E-5
2.23025	-0.000213917
2.23575	-0.00177533
2.24125	-0.000474153
2.24675	0.000241496
2.25225	0.000371615
2.25775	-0.00184039
2.26325	0.000566792
2.26875	0.000371615
2.27425	0.000241496
2.27975	-0.00158016
2.28525	-0.000734389
2.29075	-0.000864507
2.29625	-0.000539212
2.30175	-0.000734389
2.30725	0.00147762
2.31275	-0.00372711
2.31825	0.00115232
2.32375	-0.000994626
2.32925	0.00128244
2.33475	-0.000994626
2.34025	0.000436674
2.34575	-0.00131992
2.35125	0.00102221
2.35675	0.000957146
2.36225	0.000241496
2.36775	-0.000148858
2.37325	0.00108726
2.37875	-0.000344035
2.38425	-0.000539212
2.38975	-0.000409094
2.39525	-0.00138498
2.40075	-0.00171028
2.40625	0.0024535
2.41175	-1.87397E-5
2.41725	-0.000994626
2.42275	0.000501733
2.42825	0.00160774
2.43375	0.000306556
2.43925	0.00264868
2.44475	-0.000409094
2.45025	-0.00131992
2.45575	0.00141256
2.46125	-1.87397E-5
2.46675	0.00160774
2.47225	-0.00171028
2.47775	-0.000344035
2.48325	0.000371615
2.48875	-0.00223075
2.49425	-0.000799448
2.49975	-0.000409094
2.50525	-0.00177533
2.51075	-0.000799448
2.51625	0.000371615
2.52175	0.00173785
2.52725	-0.0015151
2.53275	0.000827028
2.53825	-0.000213917
2.54375	0.00147762
2.54925	0.000566792
2.55475	-8.37988E-5
2.56025	-0.000474153
2.56575	-0.00066933
2.57125	0.00225833
2.57675	-0.00171028
2.58225	-0.00125486
2.58775	0.000176437
2.59325	0.000371615
2.59875	-0.000409094
2.60425	-0.000278976
2.60975	-0.00145004
2.61525	0.000957146
2.62075	0.000566792
2.62625	-0.000213917
2.63175	-0.000734389
2.63725	-0.0011898
2.64275	0.00115232
2.64825	-0.000864507
2.65375	-0.000474153
2.65925	4.63193E-5
2.66475	0.00447033
2.67025	0.00199809
2.67575	-0.000278976
2.68125	-0.000409094
2.68675	-0.0015151
2.69225	4.63193E-5
2.69775	0.000566792
2.70325	-0.00105968
2.70875	-0.000344035
2.71425	-0.00216569
2.71975	0.00102221
2.72525	0.00173785
2.73075	-0.000278976
2.73625	0.0013475
2.74175	-0.00229581
2.74725	0.000501733
2.74725	0.00115232
2.74175	-0.00138498
2.73625	0.000371615
2.73075	0.00108726
2.72525	-0.00138498
2.71975	-0.0011898
2.71425	0.000306556
2.70875	-0.00066933
2.70325	4.63193E-5
2.69775	-0.0011898
2.69225	-0.00275122
2.68675	0.000371615
2.68125	0.00238845
2.67575	-0.00216569
2.67025	0.00108726
2.66475	-0.00470299
2.65925	-0.00210063
2.65375	-0.000344035
2.64825	-0.000604271
2.64275	0.000111378
2.63725	-0.0026211
2.63175	-0.0011898
2.62625	0.000892087
2.62075	-0.00112474
2.61525	0.00193303
2.60975	-0.000734389
2.60425	-1.87397E-5
2.59875	0.00069691
2.59325	-0.000474153
2.58775	-0.00255604
2.58225	-0.00131992
2.57675	0.00160774
2.57125	-0.00112474
2.56575	-0.000278976
2.56025	0.00290892
2.55475	0.000306556
2.54925	0.000631851
2.54375	0.000957146
2.53825	-0.00131992
2.53275	-0.00112474
2.52725	-0.000539212
2.52175	0.0016728
2.51625	0.000371615
2.51075	0.000176437
2.50525	-0.000148858
2.49975	-0.000148858
2.49425	-0.000344035
2.48875	0.00557634
2.48325	4.63193E-5
2.47775	-0.00301146
2.47225	-0.00216569
2.46675	-0.000409094
2.46125	4.63193E-5
2.45575	-0.00066933
2.45025	-0.00158016
2.44475	0.00115232
2.43925	-0.00145004
2.43375	0.000566792
2.42825	0.00115232
2.42275	-0.000344035
2.41725	0.000176437
2.41175	-0.000344035
2.40625	-0.0026211
2.40075	-0.000539212
2.39525	0.000111378
2.38975	0.000566792
2.38425	0.00206315
2.37875	0.000761969
2.37325	-0.000994626
2.36775	4.63193E-5
2.36225	0.000631851
2.35675	-0.000604271
2.35125	-0.000929566
2.34575	-0.00190545
2.34025	-0.000539212
2.33475	0.00199809
2.32925	-0.000409094
2.32375	-0.000409094
2.31825	0.000176437
2.31275	-0.000344035
2.30725	-0.00066933
2.30175	-0.00105968
2.29625	-0.000278976
2.29075	0.000827028
2.28525	-0.000474153
2.27975	0.000371615
2.27425	-0.0011898
2.26875	0.000501733
2.26325	-0.00131992
2.25775	-0.000148858
2.25225	0.000436674
2.24675	4.63193E-5
2.24125	0.00251856
2.23575	0.00121738
2.23025	-0.000474153
2.22475	-0.00125486
2.21925	-0.00288134
2.21375	-1.87397E-5
2.20825	-0.000278976
2.20275	0.00173785
2.19725	0.000566792
2.19175	-0.000148858
2.18625	-0.00066933
2.18075	-0.0026211
2.17525	-0.000539212
2.16975	0.00186797
2.16425	-0.00066933
2.15875	4.63193E-5
2.15325	-0.000278976
2.14775	-0.00171028
2.14225	0.00121738
2.13675	0.000631851
2.13125	0.00069691
2.12575	0.000957146
2.12025	0.000176437
2.11475	-0.000148858
2.10925	-0.00281628
2.10375	0.000761969
2.09825	-8.37988E-5
2.09275	-0.00177533
2.08725	-0.00066933
2.08175	-0.000994626
2.07625	0.0016728
2.07075	0.000176437
2.06525	0.00102221
2.05975	-0.000994626
2.05425	-0.000213917
2.04875	0.00147762
2.04325	-0.00125486
2.03775	-0.00619935
2.03225	-0.00190545
2.02675	-0.000344035
2.02125	0.000827028
2.01575	0.00290892
2.01025	0.533075
2.00475	0.533075
1.99925	0.533075
1.99375	0.533075
1.98825	0.533075
1.98275	0.533075
1.97725	0.533075
1.97175	0.533075
1.96625	0.533075
1.96075	0.533075
1.95525	0.533075
1.94975	0.533075
1.94425	0.533075
1.93875	0.533075
1.93325	0.533075
1.92775	0.533075
1.92225	0.533075
1.91675	0.533075
1.91125	0.533075
1.90575	0.533075
1.90025	0.533075
1.89475	0.533075
1.88925	0.533075
1.88375	0.533075
1.87825	0.533075
1.87275	0.533075
1.86725	0.533075
1.86175	0.533075
1.85625	0.533075
1.85075	0.533075
1.84525	0.533075
1.83975	0.533075
1.83425	0.533075
1.82875	0.533075
1.82325	0.533075
1.81775	0.533075
1.81225	0.533075
1.80675	0.533075
1.80125	0.533075
1.79575	0.533075
1.79025	0.533075
1.78475	0.533075
1.77925	0.533075
1.77375	0.533075
1.76825	0.533075
1.76275	0.533075
1.75725	0.533075
1.75175	0.533075
1.74625	0.533075
1.74075	0.533075
1.73525	0.533075
1.72975	0.533075
1.72425	0.533075
1.71875	0.533075
1.71325	0.533075
1.70775	0.533075
1.70225	0.533075
1.69675	0.533075
1.69125	0.533075
1.68575	0.533075
1.68025	0.533075
1.67475	0.533075
1.66925	0.533075
1.66375	0.533075
1.65825	0.533075
1.65275	0.533075
1.64725	0.533075
1.64175	0.533075
1.63625	0.533075
1.63075	0.533075
1.62525	0.533075
1.61975	0.533075
1.61425	0.533075
1.60875	0.533075
1.60325	0.533075
1.59775	0.533075
1.59225	0.533075
1.58675	0.533075
1.58125	0.533075
1.57575	0.533075
1.57025	0.533075
1.56475	0.533075
1.55925	0.533075
1.55375	0.533075
1.54825	0.533075
1.54275	0.533075
1.53725	0.533075
1.53175	0.533075
1.52625	0.533075
1.52075	0.533075
1.51525	0.533075
1.50975	0.533075
1.50425	0.533075
1.49875	0.533075
1.49325	0.533075
1.48775	0.533075
1.48225	0.533075
1.47675	0.533075
1.47125	0.533075
1.46575	0.533075
1.46025	0.533075
1.45475	0.533075
1.44925	0.533075
1.44375	0.533075
1.43825	0.533075
1.43275	0.533075
1.42725	0.533075
1.42175	0.533075
1.41625	0.533075
1.41075	0.533075
1.40525	0.533075
1.39975	0.533075
1.39425	0.533075
1.38875	0.533075
1.38325	0.533075
1.37775	0.533075
1.37225	0.533075
1.36675	0.533075
1.36125	0.533075
1.35575	0.533075
1.35025	0.533075
1.34475	0.533075
1.33925	0.533075
1.33375	0.533075
1.32825	0.533075
1.32275	0.533075
1.31725	0.533075
1.31175	0.533075
1.30625	0.533075
1.30075	0.533075
1.29525	0.533075
1.28975	0.533075
1.28425	0.533075
1.27875	0.533075
1.27325	0.533075
1.26775	0.533075
1.26225	0.533075
1.25675	0.533075
1.25125	0.533075
1.24575	0.533075
1.24025	0.533075
1.23475	0.533075
1.22925	0.533075
1.22375	0.533075
1.21825	0.533075
1.21275	0.533075
1.20725	0.533075
1.20175	0.533075
1.19625	0.533075
1.19075	0.533075
1.18525	0.533075
1.17975	0.533075
1.17425	0.533075
1.16875	0.533075
1.16325	0.533075
1.15775	0.533075
1.15225	0.533075
1.14675	0.533075
1.14125	0.533075
1.13575	0.533075
1.13025	0.533075
1.12475	0.533075
1.11925	0.533075
1.11375	0.533075
1.10825	0.533075
1.10275	0.533075
1.09725	0.533075
1.09175	0.533075
1.08625	0.533075
1.08075	0.533075
1.07525	0.533075
1.06975	0.533075
1.06425	0.533075
1.05875	0.533075
1.05325	0.533075
1.04775	0.533075
1.04225	0.533075
1.03675	0.533075
1.03125	0.533075
1.02575	0.533075
1.02025	0.533075
1.01475	0.533075
1.00925	0.533075
1.00375	0.533075
0.99825	0.533075
0.99275	0.533075
0.98725	0.533075
0.98175	0.533075
0.97625	0.533075
0.97075	0.533075
0.96525	0.533075
0.95975	0.533075
0.95425	0.533075
0.94875	0.533075
0.94325	0.533075
0.93775	0.533075
0.93225	0.533075
0.92675	0.533075
0.92125	0.533075
0.91575	0.533075
0.91025	0.533075
0.90475	0.533075
0.89925	0.533075
0.89375	0.533075
0.88825	0.533075
0.88275	0.533075
0.87725	0.533075
0.87175	0.533075
0.86625	0.533075
0.86075	0.533075
0.85525	0.533075
0.84975	0.533075
0.84425	0.533075
0.83875	0.533075
0.83325	0.533075
0.82775	0.533075
0.82225	0.533075
0.81675	0.533075
0.81125	0.533075
0.80575	0.533075
0.80025	0.533075
0.79475	0.533075
0.78925	0.533075
0.78375	0.533075
0.77825	0.533075
0.77275	0.533075
0.76725	0.533075
0.76175	0.533075
0.75625	0.533075
0.75075	0.533075
0.74525	0.533075
0.73975	0.533075
0.73425	0.533075
0.72875	0.533075
0.72325	0.533075
0.71775	0.533075
0.71225	0.533075
0.70675	0.533075
0.70125	0.533075
0.69575	0.533075
0.69025	0.533075
0.68475	0.533075
0.67925	0.533075
0.67375	0.533075
0.66825	0.533075
0.66275	0.533075
0.65725	0.533075
0.65175	0.533075
0.64625	0.533075
0.64075	0.533075
0.63525	0.533075
0.62975	0.533075
0.62425	0.533075
0.61875	0.533075
0.61325	0.533075
0.60775	0.533075
0.60225	0.533075
0.59675	0.533075
0.59125	0.533075
0.58575	0.533075
0.58025	0.533075
0.57475	0.533075
0.56925	0.533075
0.56375	0.533075
0.55825	0.533075
0.55275	0.533075
0.54725	0.533075
0.54175	0.533075
0.53625	0.533075
0.53075	0.533075
0.52525	0.533075
0.51975	0.533075
0.51425	0.533075
0.50875	0.533075
0.50325	0.533075
0.49775	0.533075
0.49225	0.533075
0.48675	0.533075
0.48125	0.533075
0.47575	0.533075
0.47025	0.533075
0.46475	0.533075
0.45925	0.533075
0.45375	0.533075
0.44825	0.533075
0.44275	0.533075
0.43725	0.533075
0.43175	0.533075
0.42625	0.533075
0.42075	0.533075
0.41525	0.533075
0.40975	0.533075
0.40425	0.533075
0.39875	0.533075
0.39325	0.533075
0.38775	0.533075
0.38225	0.533075
0.37675	0.533075
0.37125	0.533075
0.36575	0.533075
0.36025	0.533075
0.35475	0.533075
0.34925	0.533075
0.34375	0.533075
0.33825	0.533075
0.33275	0.533075
0.32725	0.533075
0.32175	0.533075
0.31625	0.533075
0.31075	0.533075
0.30525	0.533075
0.29975	0.533075
0.29425	0.533075
0.28875	0.533075
0.28325	0.533075
0.27775	0.533075
0.27225	0.533075
0.26675	0.533075
0.26125	0.533075
0.25575	0.533075
0.25025	0.533075
0.24475	0.533075
0.23925	0.533075
0.23375	0.533075
0.22825	0.533075
0.22275	0.533075
0.21725	0.533075
0.21175	0.533075
0.20625	0.533075
0.20075	0.533075
0.19525	0.533075
0.18975	0.533075
0.18425	0.533075
0.17875	0.533075
0.17325	0.533075
0.16775	0.533075
0.16225	0.533075
0.15675	0.533075
0.15125	0.533075
0.14575	0.533075
0.14025	0.533075
0.13475	0.533075
0.12925	0.533075
0.12375	0.533075
0.11825	0.533075
0.11275	0.533075
0.10725	0.533075
0.10175	0.533075
0.09625	0.533075
0.09075	0.533075
0.08525	0.533075
0.07975	0.533075
0.07425	0.533075
0.06875	0.533075
0.06325	0.533075
0.05775	0.533075
0.05225	0.533075
0.04675	0.533075
0.04125	0.533075
0.03575	0.533075
0.03025	0.533075
0.02475	0.533075
0.01925	0.533075
0.01375	0.533075
0.00825	0.533075
0.00275	0.533075
-3.77302E-16	0.533075