File: 3_electro-mechanical coupling/EM_Spring_Switch_Experiment/220519 - FD-3.txt
Displacement [mm] - FD curve	Force [N] - FD curve
0.00275	0
0.00825	0
0.01375	0
0.01925	0
0.02475	0
0.03025	0
0.03575	0
0.04125	0
0.04675	0
0.05225	0
0.05775	0
0.06325	0
0.06875	0
0.07425	0
0.07975	0
0.08525	0
0.09075	0
0.09625	0
0.10175	0
0.10725	0
0.11275	0
0.11825	0
0.12375	0
0.12925	0
0.13475	0
0.14025	0
0.14575	0
0.15125	0
0.15675	0
0.16225	0
0.16775	0
0.17325	0
0.17875	0
0.18425	0
0.18975	0
0.19525	0
0.20075	0
0.20625	0
0.21175	0
0.21725	0
0.22275	0
0.22825	0
0.23375	0
0.23925	0
0.24475	0
0.25025	0
0.25575	0
0.26125	0
0.26675	0
0.27225	0
0.27775	0
0.28325	0
0.28875	0
0.29425	0
0.29975	0
0.30525	0
0.31075	0
0.31625	0
0.32175	0
0.32725	0
0.33275	0
0.33825	0
0.34375	0
0.34925	0
0.35475	0
0.36025	0
0.36575	0
0.37125	0
0.37675	0
0.38225	0
0.38775	0
0.39325	0
0.39875	0
0.40425	0
0.40975	0
0.41525	0
0.42075	0
0.42625	0
0.43175	0
0.43725	0
0.44275	0
0.44825	0
0.45375	0
0.45925	0
0.46475	0
0.47025	0
0.47575	0
0.48125	0
0.48675	0
0.49225	0
0.49775	0
0.50325	0
0.50875	0
0.51425	0
0.51975	0
0.52525	0
0.53075	0
0.53625	0
0.54175	0
0.54725	0
0.55275	0
0.55825	0
0.56375	0
0.56925	0
0.57475	0
0.58025	0
0.58575	0
0.59125	0
0.59675	0
0.60225	0
0.60775	0
0.61325	0
0.61875	0.000101937
0.62425	0
0.62975	0
0.63525	0
0.64075	0
0.64625	0
0.65175	0
0.65725	0
0.66275	0
0.66825	0
0.67375	0
0.67925	0
0.68475	0
0.69025	0
0.69575	0
0.70125	0
0.70675	0
0.71225	0
0.71775	0
0.72325	0
0.72875	0
0.73425	0
0.73975	0
0.74525	0
0.75075	0
0.75625	0
0.76175	0
0.76725	0
0.77275	0
0.77825	0
0.78375	0
0.78925	0
0.79475	0
0.80025	0
0.80575	0
0.81125	0
0.81675	0
0.82225	0
0.82775	0
0.83325	0
0.83875	0
0.84425	0
0.84975	0
0.85525	0
0.86075	0
0.86625	0
0.87175	0
0.87725	0
0.88275	0
0.88825	0
0.89375	0
0.89925	0
0.90475	0
0.91025	0
0.91575	0
0.92125	0
0.92675	0
0.93225	0.000101937
0.93775	0
0.94325	0
0.94875	0
0.95425	0
0.95975	0
0.96525	0
0.97075	0.000101937
0.97625	0.000101937
0.98175	0.000101937
0.98725	0.000203874
0.99275	0.000203874
0.99825	0.000203874
1.00375	0.000203874
1.00925	0.000203874
1.01475	0.000203874
1.02025	0.00030581
1.02575	0.00030581
1.03125	0.00030581
1.03675	0.000407747
1.04225	0.000407747
1.04775	0.000407747
1.05325	0.000407747
1.05875	0.000407747
1.06425	0.000407747
1.06975	0.000509684
1.07525	0.000509684
1.08075	0.000509684
1.08625	0.000611621
1.09175	0.000611621
1.09725	0.000611621
1.10275	0.000611621
1.10825	0.000611621
1.11375	0.000611621
1.11925	0.000713558
1.12475	0.000713558
1.13025	0.000713558
1.13575	0.000713558
1.14125	0.000713558
1.14675	0.000713558
1.15225	0.000815494
1.15775	0.000815494
1.16325	0.000917431
1.16875	0.000917431
1.17425	0.000917431
1.17975	0.000917431
1.18525	0.000917431
1.19075	0.00101937
1.19625	0.00101937
1.20175	0.00101937
1.20725	0.0011213
1.21275	0.0011213
1.21825	0.0011213
1.22375	0.0011213
1.22925	0.00122324
1.23475	0.00122324
1.24025	0.00132518
1.24575	0.00132518
1.25125	0.00132518
1.25675	0.00132518
1.26225	0.00132518
1.26775	0.00142712
1.27325	0.00142712
1.27875	0.00142712
1.28425	0.00152905
1.28975	0.00152905
1.29525	0.00163099
1.30075	0.00163099
1.30625	0.00163099
1.31175	0.00163099
1.31725	0.00173293
1.32275	0.00173293
1.32825	0.00183486
1.33375	0.00183486
1.33925	0.00183486
1.34475	0.00183486
1.35025	0.00183486
1.35575	0.0019368
1.36125	0.0019368
1.36675	0.0019368
1.37225	0.00203874
1.37775	0.00203874
1.38325	0.00203874
1.38875	0.00203874
1.39425	0.00214067
1.39975	0.00214067
1.40525	0.00224261
1.41075	0.00224261
1.41625	0.00224261
1.42175	0.00224261
1.42725	0.00234455
1.43275	0.00234455
1.43825	0.00244648
1.44375	0.00244648
1.44925	0.00244648
1.45475	0.00244648
1.46025	0.00254842
1.46575	0.00254842
1.47125	0.00265036
1.47675	0.00265036
1.48225	0.00265036
1.48775	0.00265036
1.49325	0.00275229
1.49875	0.00275229
1.50425	0.00285423
1.50975	0.00285423
1.51525	0.00295617
1.52075	0.00295617
1.52625	0.00295617
1.53175	0.0030581
1.53725	0.0030581
1.54275	0.0030581
1.54825	0.0030581
1.55375	0.00316004
1.55925	0.00326198
1.56475	0.00336391
1.57025	0.00346585
1.57575	0.00356779
1.58125	0.00366972
1.58675	0.00366972
1.59225	0.00377166
1.59775	0.0038736
1.60325	0.00397554
1.60875	0.00407747
1.61425	0.00407747
1.61975	0.00417941
1.62525	0.00428135
1.63075	0.00438328
1.63625	0.00448522
1.64175	0.00458716
1.64725	0.00468909
1.65275	0.00479103
1.65825	0.00489297
1.66375	0.00489297
1.66925	0.00530071
1.67475	0.00733945
1.68025	0.00876656
1.68575	0.0111111
1.69125	0.0133537
1.69675	0.0156983
1.70225	0.0172273
1.70775	0.0194699
1.71325	0.0218145
1.71875	0.024159
1.72425	0.02579
1.72975	0.0280326
1.73525	0.0303772
1.74075	0.0327217
1.74625	0.0342508
1.75175	0.0365953
1.75725	0.0388379
1.76275	0.0404689
1.76825	0.0429154
1.77375	0.045158
1.77925	0.0474006
1.78475	0.0488277
1.79025	0.0510703
1.79575	0.0533129
1.80125	0.0555556
1.80675	0.058104
1.81225	0.0590214
1.81775	0.0609582
1.82325	0.0621814
1.82875	0.0641182
1.83425	0.066157
1.83975	0.0678899
1.84525	0.0691131
1.85075	0.0710499
1.85625	0.0727829
1.86175	0.0746177
1.86725	0.0759429
1.87275	0.0777778
1.87825	0.0795107
1.88375	0.0812436
1.88925	0.082263
1.89475	0.083894
1.90025	0.0856269
1.90575	0.0867482
1.91125	0.0884811
1.91675	0.0902141
1.92225	0.091947
1.92775	0.0936799
1.93325	0.0948012
1.93875	0.0964322
1.94425	0.0981651
1.94975	0.0992864
1.95525	0.101019
1.96075	0.10265
1.96625	0.104383
1.97175	0.105607
1.97725	0.107339
1.98275	0.10897
1.98825	0.110601
1.99375	0.111723
1.99925	0.113354
2.00475	0.114985
2.01025	0.116106
2.01575	0.117125
2.02125	0.117533
2.02675	0.117941
2.03225	0.118145
2.03775	0.118552
2.04325	0.11896
2.04875	0.119368
2.05425	0.119572
2.05975	0.11998
2.06525	0.120387
2.07075	0.120795
2.07625	0.121101
2.08175	0.121509
2.08725	0.121814
2.09275	0.122222
2.09825	0.122528
2.10375	0.122936
2.10925	0.123344
2.11475	0.123649
2.12025	0.124057
2.12575	0.124363
2.13125	0.124771
2.13675	0.125178
2.14225	0.125586
2.14775	0.12579
2.15325	0.126198
2.15875	0.126606
2.16425	0.127013
2.16975	0.127319
2.17525	0.127625
2.18075	0.128033
2.18625	0.12844
2.19175	0.128746
2.19725	0.129154
2.20275	0.129562
2.20825	0.129969
2.21375	0.130275
2.21925	0.130683
2.22475	0.131091
2.23025	0.131498
2.23575	0.131804
2.24125	0.132212
2.24675	0.13262
2.25225	0.133028
2.25775	0.133333
2.26325	0.133639
2.26875	0.134149
2.27425	0.134353
2.27975	0.134862
2.28525	0.135168
2.29075	0.135576
2.29625	0.135882
2.30175	0.13629
2.30725	0.136697
2.31275	0.137105
2.31825	0.137513
2.32375	0.137819
2.32925	0.138226
2.33475	0.138634
2.34025	0.139042
2.34575	0.139348
2.35125	0.139755
2.35675	0.140163
2.36225	0.140571
2.36775	0.140877
2.37325	0.141284
2.37875	0.141692
2.38425	0.1421
2.38975	0.142406
2.39525	0.142813
2.40075	0.143221
2.40625	0.143629
2.41175	0.144037
2.41725	0.144343
2.42275	0.14475
2.42825	0.145158
2.43375	0.145668
2.43925	0.145973
2.44475	0.146381
2.45025	0.146789
2.45575	0.147197
2.46125	0.147503
2.46675	0.14791
2.47225	0.148318
2.47775	0.148726
2.48325	0.149032
2.48875	0.149541
2.49425	0.149949
2.49975	0.150357
2.50525	0.150765
2.51075	0.15107
2.51625	0.151478
2.52175	0.151886
2.52725	0.152294
2.53275	0.152599
2.53825	0.153007
2.54375	0.153517
2.54925	0.153925
2.55475	0.154332
2.56025	0.154638
2.56575	0.155046
2.57125	0.155556
2.57675	0.155963
2.58225	0.156269
2.58775	0.156677
2.59325	0.157085
2.59875	0.157594
2.60425	0.1579
2.60975	0.158308
2.61525	0.158716
2.62075	0.159225
2.62625	0.159429
2.63175	0.159939
2.63725	0.160347
2.64275	0.160856
2.64825	0.16106
2.65375	0.16157
2.65925	0.161978
2.66475	0.162487
2.67025	0.162793
2.67575	0.163201
2.68125	0.163609
2.68675	0.164118
2.69225	0.164424
2.69775	0.164832
2.70325	0.165341
2.70875	0.165749
2.71425	0.166055
2.71975	0.166463
2.72525	0.166972
2.73075	0.16738
2.73625	0.16789
2.74175	0.168196
2.74725	0.168603
2.74725	0.169011
2.74175	0.169215
2.73625	0.168909
2.73075	0.168298
2.72525	0.167686
2.71975	0.167176
2.71425	0.166565
2.70875	0.166157
2.70325	0.165647
2.69775	0.165036
2.69225	0.16473
2.68675	0.164118
2.68125	0.163609
2.67575	0.163099
2.67025	0.162691
2.66475	0.162181
2.65925	0.16157
2.65375	0.16106
2.64825	0.160754
2.64275	0.160245
2.63725	0.159735
2.63175	0.159225
2.62625	0.158919
2.62075	0.15841
2.61525	0.1579
2.60975	0.15739
2.60425	0.157085
2.59875	0.156575
2.59325	0.156065
2.58775	0.155657
2.58225	0.155352
2.57675	0.154842
2.57125	0.154434
2.56575	0.153925
2.56025	0.153619
2.55475	0.153211
2.54925	0.152701
2.54375	0.152192
2.53825	0.151784
2.53275	0.151478
2.52725	0.15107
2.52175	0.150561
2.51625	0.150153
2.51075	0.149745
2.50525	0.149337
2.49975	0.14893
2.49425	0.148522
2.48875	0.148012
2.48325	0.147706
2.47775	0.147299
2.47225	0.146789
2.46675	0.146381
2.46125	0.146075
2.45575	0.145668
2.45025	0.14526
2.44475	0.14475
2.43925	0.144444
2.43375	0.144037
2.42825	0.143629
2.42275	0.143119
2.41725	0.142712
2.41175	0.142406
2.40625	0.141998
2.40075	0.14159
2.39525	0.141081
2.38975	0.140673
2.38425	0.140367
2.37875	0.139959
2.37325	0.139551
2.36775	0.139144
2.36225	0.138838
2.35675	0.13843
2.35125	0.13792
2.34575	0.137513
2.34025	0.137207
2.33475	0.136799
2.32925	0.136391
2.32375	0.135984
2.31825	0.135678
2.31275	0.13527
2.30725	0.134862
2.30175	0.134455
2.29625	0.134251
2.29075	0.133843
2.28525	0.133435
2.27975	0.133028
2.27425	0.132722
2.26875	0.132314
2.26325	0.131906
2.25775	0.131498
2.25225	0.131193
2.24675	0.130785
2.24125	0.130377
2.23575	0.129969
2.23025	0.129664
2.22475	0.129256
2.21925	0.128848
2.21375	0.12844
2.20825	0.128135
2.20275	0.127727
2.19725	0.127319
2.19175	0.126911
2.18625	0.126606
2.18075	0.126198
2.17525	0.12579
2.16975	0.125382
2.16425	0.125076
2.15875	0.124771
2.15325	0.124261
2.14775	0.123955
2.14225	0.123649
2.13675	0.123242
2.13125	0.122834
2.12575	0.122426
2.12025	0.122222
2.11475	0.121814
2.10925	0.121407
2.10375	0.120999
2.09825	0.120693
2.09275	0.120285
2.08725	0.119878
2.08175	0.119572
2.07625	0.119266
2.07075	0.118858
2.06525	0.118451
2.05975	0.118145
2.05425	0.117839
2.04875	0.117431
2.04325	0.117023
2.03775	0.116616
2.03225	0.116412
2.02675	0.116004
2.02125	0.115596
2.01575	0.115189
2.01025	0.114679
2.00475	0.113456
1.99925	0.111519
1.99375	0.109684
1.98825	0.108461
1.98275	0.106422
1.97725	0.104485
1.97175	0.10265
1.96625	0.101325
1.96075	0.0993884
1.95525	0.0975535
1.94975	0.0956167
1.94425	0.0943935
1.93875	0.0925586
1.93325	0.0907238
1.92775	0.088787
1.92225	0.0874618
1.91675	0.085525
1.91125	0.0835882
1.90575	0.0816514
1.90025	0.0803262
1.89475	0.0782875
1.88925	0.0762487
1.88375	0.0749235
1.87825	0.0728848
1.87275	0.070948
1.86725	0.0690112
1.86175	0.067686
1.85625	0.0656473
1.85075	0.0637105
1.84525	0.0616718
1.83975	0.0602446
1.83425	0.0583078
1.82875	0.056371
1.82325	0.0544343
1.81775	0.053211
1.81225	0.0513761
1.80675	0.0495413
1.80125	0.0481142
1.79575	0.0461774
1.79025	0.0442406
1.78475	0.0423038
1.77925	0.0409786
1.77375	0.0391437
1.76825	0.0373089
1.76275	0.0353721
1.75725	0.033945
1.75175	0.0320082
1.74625	0.0300714
1.74075	0.0288481
1.73525	0.0270133
1.72975	0.0251784
1.72425	0.0232416
1.71875	0.0219164
1.71325	0.0200815
1.70775	0.0182467
1.70225	0.0164118
1.69675	0.0151886
1.69125	0.0133537
1.68575	0.0115189
1.68025	0.0102956
1.67475	0.00846075
1.66925	0.00672783
1.66375	0.0049949
1.65825	0.00448522
1.65275	0.00438328
1.64725	0.00428135
1.64175	0.00417941
1.63625	0.00417941
1.63075	0.00407747
1.62525	0.00397554
1.61975	0.0038736
1.61425	0.00377166
1.60875	0.00377166
1.60325	0.00366972
1.59775	0.00356779
1.59225	0.00356779
1.58675	0.00346585
1.58125	0.00336391
1.57575	0.00326198
1.57025	0.00326198
1.56475	0.00316004
1.55925	0.00316004
1.55375	0.0030581
1.54825	0.0030581
1.54275	0.00295617
1.53725	0.00295617
1.53175	0.00295617
1.52625	0.00295617
1.52075	0.00285423
1.51525	0.00285423
1.50975	0.00275229
1.50425	0.00275229
1.49875	0.00275229
1.49325	0.00265036
1.48775	0.00265036
1.48225	0.00254842
1.47675	0.00254842
1.47125	0.00244648
1.46575	0.00244648
1.46025	0.00244648
1.45475	0.00244648
1.44925	0.00234455
1.44375	0.00234455
1.43825	0.00234455
1.43275	0.00224261
1.42725	0.00224261
1.42175	0.00224261
1.41625	0.00224261
1.41075	0.00214067
1.40525	0.00214067
1.39975	0.00203874
1.39425	0.00203874
1.38875	0.00203874
1.38325	0.00203874
1.37775	0.00203874
1.37225	0.0019368
1.36675	0.0019368
1.36125	0.00183486
1.35575	0.00183486
1.35025	0.00183486
1.34475	0.00183486
1.33925	0.00183486
1.33375	0.00173293
1.32825	0.00173293
1.32275	0.00163099
1.31725	0.00163099
1.31175	0.00163099
1.30625	0.00163099
1.30075	0.00163099
1.29525	0.00152905
1.28975	0.00152905
1.28425	0.00152905
1.27875	0.00142712
1.27325	0.00142712
1.26775	0.00142712
1.26225	0.00142712
1.25675	0.00132518
1.25125	0.00132518
1.24575	0.00132518
1.24025	0.00122324
1.23475	0.00122324
1.22925	0.0011213
1.22375	0.0011213
1.21825	0.0011213
1.21275	0.0011213
1.20725	0.0011213
1.20175	0.00101937
1.19625	0.00101937
1.19075	0.000917431
1.18525	0.000917431
1.17975	0.000917431
1.17425	0.000917431
1.16875	0.000917431
1.16325	0.000917431
1.15775	0.000815494
1.15225	0.000815494
1.14675	0.000815494
1.14125	0.000713558
1.13575	0.000713558
1.13025	0.000713558
1.12475	0.000713558
1.11925	0.000713558
1.11375	0.000713558
1.10825	0.000713558
1.10275	0.000611621
1.09725	0.000611621
1.09175	0.000611621
1.08625	0.000509684
1.08075	0.000509684
1.07525	0.000509684
1.06975	0.000509684
1.06425	0.000509684
1.05875	0.000509684
1.05325	0.000407747
1.04775	0.000407747
1.04225	0.000407747
1.03675	0.000407747
1.03125	0.000407747
1.02575	0.000407747
1.02025	0.000407747
1.01475	0.00030581
1.00925	0.00030581
1.00375	0.00030581
0.99825	0.000203874
0.99275	0.000203874
0.98725	0.000203874
0.98175	0.000203874
0.97625	0.000203874
0.97075	0.000203874
0.96525	0.000101937
0.95975	0.000101937
0.95425	0.000101937
0.94875	0
0.94325	0
0.93775	0
0.93225	0
0.92675	0
0.92125	0
0.91575	0
0.91025	0
0.90475	0
0.89925	0
0.89375	0
0.88825	0
0.88275	0
0.87725	0
0.87175	0
0.86625	0
0.86075	0
0.85525	0
0.84975	0
0.84425	0
0.83875	0
0.83325	0
0.82775	0
0.82225	0
0.81675	0
0.81125	0
0.80575	0
0.80025	0
0.79475	0
0.78925	0
0.78375	0
0.77825	0
0.77275	0
0.76725	0
0.76175	0
0.75625	0
0.75075	0
0.74525	0
0.73975	0
0.73425	0
0.72875	0
0.72325	0
0.71775	0
0.71225	0
0.70675	0
0.70125	0
0.69575	0
0.69025	0
0.68475	0
0.67925	0
0.67375	0
0.66825	0
0.66275	0
0.65725	0
0.65175	0
0.64625	0
0.64075	0
0.63525	0
0.62975	0
0.62425	0
0.61875	0
0.61325	0
0.60775	0
0.60225	0
0.59675	0
0.59125	0
0.58575	0
0.58025	0
0.57475	0
0.56925	0
0.56375	0
0.55825	0
0.55275	0
0.54725	0
0.54175	0
0.53625	0
0.53075	0
0.52525	0
0.51975	0
0.51425	0
0.50875	0
0.50325	0
0.49775	0
0.49225	0
0.48675	0
0.48125	0
0.47575	0
0.47025	0
0.46475	0
0.45925	0
0.45375	0
0.44825	0
0.44275	0
0.43725	0
0.43175	0
0.42625	0
0.42075	0
0.41525	0
0.40975	0
0.40425	0
0.39875	0
0.39325	0
0.38775	0
0.38225	0
0.37675	0
0.37125	0
0.36575	0
0.36025	0
0.35475	0
0.34925	0
0.34375	0
0.33825	0
0.33275	0
0.32725	0
0.32175	0
0.31625	0
0.31075	0
0.30525	0
0.29975	0
0.29425	0
0.28875	0
0.28325	0
0.27775	0
0.27225	0
0.26675	0
0.26125	0
0.25575	0
0.25025	0
0.24475	0
0.23925	0
0.23375	0
0.22825	0
0.22275	0
0.21725	0
0.21175	0
0.20625	0
0.20075	0
0.19525	0
0.18975	0
0.18425	0
0.17875	0
0.17325	0
0.16775	0
0.16225	0
0.15675	0
0.15125	0
0.14575	0
0.14025	0
0.13475	0
0.12925	0
0.12375	0
0.11825	0
0.11275	0
0.10725	0
0.10175	0
0.09625	0
0.09075	0
0.08525	0
0.07975	0
0.07425	0
0.06875	0
0.06325	0
0.05775	0
0.05225	0
0.04675	0
0.04125	0
0.03575	0
0.03025	0
0.02475	0
0.01925	0
0.01375	0
0.00825	0
0.00275	0
-3.77302E-16	0